G:\BEAR_storage\User_Experiments\20221107_cotroneo\file(1)_Region 4__0164.txt
Ring Energy (GeV): 2
Lifetime (hours): 23.4786
Scan beginning: 11/10/2022	10:16:10 PM
Ring current (mA): 308.84
Source position: x (mm): 0.003 x' (mrad): 0.001 y (mm): -0.007 y' (mrad): -0.001
Scan end: 11/10/2022	10:23:05 PM
Ring current (mA): 308.65
Source position: x (mm): 0.004 x' (mrad): 0.001 y (mm): -0.009 y' (mrad): -0.003

SCAN TYPE: PHOTON ENERGY VS VAR_1 VS VAR_2

FILE INFO: FILE INFO:

SCAN PARAMETERS
waiting time (ms): 0
Number of scans: 1
Current scan number: 1
DARK OFF 
PREDARK OFF 

SCAN PARAMETERS
Regions configuration: 
number of regions: 5
Mirror grating scan: on
Timed acquisition: off
Region 1:
Initial energy (eV): 100.000000
Final energy (eV): 180.000000
Delta energy (eV): 20.000000
Deviation angle choice: Default High flux
Deviation angle (°): NaN
B filter
G1200 channel
range keithley B 20 nA
range keithley C 200 nA
range keithley A 20 nA
Var_1: ThetaM 0.000000
Var_2: ThetaA-59.700000
Bias CEM (V): 0.000000
Bias Keithley B (V): 0.000000
Name region: 
Region 2:
Initial energy (eV): 170.000000
Final energy (eV): 280.000000
Delta energy (eV): 20.000000
Deviation angle choice: Default High flux
Deviation angle (°): NaN
PY filter 
G1200 channel
range keithley B 20 nA
range keithley C 200 nA
range keithley A 20 nA
Var_1: ThetaM 0.000000
Var_2: ThetaA-59.700000
Bias CEM (V): 0.000000
Bias Keithley B (V): 0.000000
Name region: 
Region 3:
Initial energy (eV): 260.000000
Final energy (eV): 460.000000
Delta energy (eV): 20.000000
Deviation angle choice: Default High flux
Deviation angle (°): NaN
Ti filter
G1200 channel
range keithley B 20 nA
range keithley C 200 nA
range keithley A 20 nA
Var_1: ThetaM 0.000000
Var_2: ThetaA-59.700000
Bias CEM (V): 0.000000
Bias Keithley B (V): 0.000000
Name region: 
Region 4:
Initial energy (eV): 440.000000
Final energy (eV): 1000.000000
Delta energy (eV): 20.000000
Deviation angle choice: Default High flux
Deviation angle (°): NaN
Full Beam
G1200 channel
range keithley B 20 nA
range keithley C 200 nA
range keithley A 20 nA
Var_1: ThetaM 0.000000
Var_2: ThetaA-59.700000
Bias CEM (V): 0.000000
Bias Keithley B (V): 0.000000
Name region: 
Region 5:
Initial energy (eV): 270.000000
Final energy (eV): 330.000000
Delta energy (eV): 0.500000
Deviation angle choice: Default High flux
Deviation angle (°): NaN
Ti filter
G1200 channel
range keithley B 20 nA
range keithley C 200 nA
range keithley A 20 nA
Var_1: ThetaM 0.000000
Var_2: ThetaA-59.700000
Bias CEM (V): 0.000000
Bias Keithley B (V): 0.000000
Name region: 

BEAR MONOCHROMATOR CONFIGURATION: 
Current Grating Position:     62412.70
Current Mirror Position: 215699.4
Current Grating: G1200
P2 phiz position:  0.0000
Mono axis position: 25.0000
Current Photon Energy (eV): 329.999
Current Deviation Angle: 170.186
Vertical Exit Slits (um): 15.000
Exit slit y axis position: 1.1500
Horizontal Exit Slits (um):  890.000
Exit slit z axis position: 1.9250
Mitutoyo position (mm): 

Dose on sample (mJ/cm^2): NaN

ENERGY CALIBRATION:
offset grating G1200: yes
Delta 0 order G1200:  -1900.0
offset grating G1800: not
Delta 0 order G1800:  0.0
offset grating GNIM: not
Delta 0 order GNIM:  0.0
ZERO ORDER POSITIONS:
Grating G1200: Mirror position:  4938.0
Grating position: -105355.0
Grating G1800: 
Mirror position:  4938.0
Grating position: -106345.0
Grating GNIM: 
Mirror position:  10000.0
Grating position: 227300.0

Initial filter: Ti filter

EXPERIMENTAL CHAMBER CONFIGURATION: 
PsiC (deg):   -0.006502
Phi Analyzer (degrees): 4.250487
Theta Manipulator (degrees): 1.845970
Theta Analyzer (degrees): -61.701633
PhiM (degrees): -6.003715
XM (mm): -1.999938
YM (mm): 23.000025
ZM (mm): (Warning: for kinetic energy scans, 
this parameter is given in the scan settings) 
-16.032888
TiltM (°): -5.747775

COIL VALUES
Ix (amps):0.000
Iy (amps): 0.053
Iz (amps): 0.000

POLARIZATION SELECTOR CONFIGURATION:
Psi1 (rad): -0.001665535
Psi2 (rad): 0.001417093
Z min position (mm): 46.599650
DZ position (mm): 18.599100
Zmin 0 (mm): 65.700000
DZ0 (mm): 54.000000

BEAM SELECTOR CONFIGURATION:
Zmin position (mm): 158.000000
DZ position (mm): 264.000000
Y+ position (mm): 291.700000
Y- position (mm): NaN

CHANNEL ELECTRON MULTIPLIER CONFIGURATION:
CEM configured: OFF
Bias CEM: 0.000000

FLUORESCENCE DETECTOR CONFIGURATION:
Not configured

LUMINESCENCE MONOCHROMATOR CONFIGURATION:
Optical fiber position (mm): 0.000000
Optical fiber Switch inside: ON
Optical fiber Switch outside: ON
Monochromator wavelength (A): 229000.000000
Limit Switches: OFF

I0 MONITOR PARAMETERS:
I0 detector position(mm): NaN
Lower switch: OFF
Upper switch: OFF
Valve status:unread

PRESSURE PARAMETERS:
Monitor chamber pressure (mbar): 1.762e-09
Experimental chamber pressure -ION GAUGE-(mbar): 0.000000E+0

XMCD PARAMETERS:
Xmcd OFF
Xmcd Direction -
Xmcd current (A): 0.000000

Gated scan off

Instrument 1: AMMETER KEITHLEY 6517A B
Measure type: Current
range type: set range value
range value (ampere):  20 nA
Integration time:  set NPLC value
NPLC value: 10.000
Digital filter count: 2
SAMPLE BIAS (V): 0
Vsource: OFF
Output Voltage value: -0.000
Vsource range: 1000 V

Instrument 2: AMMETER KEITHLEY 6517A A
Measure type: Current
range type: set range value
range value (ampere):  20 nA
Integration time:  set NPLC value
NPLC value: 10.000
Digital filter count: 2
Vsource: OFF
Output Voltage value: -0.000
Vsource range: 100 V
Trigger source: bus

Instrument 3: AMMETER KEITHLEY 6517A C 
Measure type: Current
range type: set range value
range value (ampere):  200 nA
Integration time:  set NPLC value
NPLC value: 10.000
Digital filter count: 2
Vsource: OFF
Output Voltage value: -0.000
Vsource range: 100 V
Trigger source: bus


________________________________________________________________________________

RelativeTime (msec)	Photon Energy	Var_1	Var_2	INSTR_1_Sample grounded_(ampere ) 	INSTR_2_Monitor IM_(ampere)  	INSTR_3_Diode B1_(ampere)	I_BPM_sum (Amps)	
________________________________________________________________________________

2.52638000E+5	4.39985533E+2	0.00000000E+0	-5.97000000E+1	2.40000000E-13	3.50798000E-9	2.78196000E-8	9.04098529E-5
2.58041000E+5	4.60010986E+2	0.00000000E+0	-5.97000000E+1	2.80000000E-13	3.64219000E-9	3.16949000E-8	9.06504471E-5
2.62215000E+5	4.79976825E+2	0.00000000E+0	-5.97000000E+1	2.70000000E-13	3.73005000E-9	3.47167000E-8	9.07241155E-5
2.66409000E+5	5.00010310E+2	0.00000000E+0	-5.97000000E+1	2.70000000E-13	3.80897000E-9	3.84053000E-8	9.05862022E-5
2.70948000E+5	5.20012574E+2	0.00000000E+0	-5.97000000E+1	2.80000000E-13	3.55747000E-9	3.90711000E-8	9.07079149E-5
2.74466000E+5	5.39997547E+2	0.00000000E+0	-5.97000000E+1	2.70000000E-13	3.32088000E-9	3.83280000E-8	9.05925382E-5
2.78064000E+5	5.59988950E+2	0.00000000E+0	-5.97000000E+1	2.60000000E-13	3.70468000E-9	3.98259000E-8	9.06023283E-5
2.81951000E+5	5.79995976E+2	0.00000000E+0	-5.97000000E+1	2.80000000E-13	3.89389000E-9	4.61841000E-8	9.07466281E-5
2.85830000E+5	5.99987275E+2	0.00000000E+0	-5.97000000E+1	2.70000000E-13	3.87095000E-9	4.92029000E-8	9.06448890E-5
2.89565000E+5	6.20020027E+2	0.00000000E+0	-5.97000000E+1	2.70000000E-13	3.78781000E-9	5.09476000E-8	9.04869336E-5
2.93143000E+5	6.39996843E+2	0.00000000E+0	-5.97000000E+1	3.00000000E-13	3.77248000E-9	5.34799000E-8	9.06042952E-5
2.96745000E+5	6.59999068E+2	0.00000000E+0	-5.97000000E+1	2.60000000E-13	3.77134000E-9	5.63146000E-8	9.05787844E-5
3.00501000E+5	6.80009815E+2	0.00000000E+0	-5.97000000E+1	2.60000000E-13	3.75435000E-9	5.95686000E-8	9.04570509E-5
3.04220000E+5	6.99963505E+2	0.00000000E+0	-5.97000000E+1	2.70000000E-13	3.67581000E-9	6.18821000E-8	9.06850953E-5
3.08124000E+5	7.20005039E+2	0.00000000E+0	-5.97000000E+1	2.50000000E-13	3.53740000E-9	6.26700000E-8	9.03923113E-5
3.11991000E+5	7.39978832E+2	0.00000000E+0	-5.97000000E+1	2.40000000E-13	3.33209000E-9	6.22554000E-8	9.05819256E-5
3.15852000E+5	7.60039164E+2	0.00000000E+0	-5.97000000E+1	2.50000000E-13	3.08524000E-9	6.12800000E-8	9.05932177E-5
3.19856000E+5	7.80009787E+2	0.00000000E+0	-5.97000000E+1	2.70000000E-13	3.02860000E-9	6.44604000E-8	9.04781122E-5
3.23905000E+5	7.99969830E+2	0.00000000E+0	-5.97000000E+1	2.50000000E-13	2.97060000E-9	6.81649000E-8	9.06160969E-5
3.27787000E+5	8.19983229E+2	0.00000000E+0	-5.97000000E+1	2.80000000E-13	2.83329000E-9	7.02652000E-8	9.06317998E-5
3.31545000E+5	8.40012578E+2	0.00000000E+0	-5.97000000E+1	2.60000000E-13	2.63929000E-9	7.11603000E-8	9.04246498E-5
3.35143000E+5	8.60009731E+2	0.00000000E+0	-5.97000000E+1	2.90000000E-13	2.45115000E-9	7.24821000E-8	9.03790760E-5
3.38712000E+5	8.80024376E+2	0.00000000E+0	-5.97000000E+1	3.10000000E-13	2.30031000E-9	7.52884000E-8	9.04504675E-5
3.42161000E+5	8.99990533E+2	0.00000000E+0	-5.97000000E+1	2.80000000E-13	2.17044000E-9	7.88766000E-8	9.03695542E-5
3.45580000E+5	9.20007115E+2	0.00000000E+0	-5.97000000E+1	3.20000000E-13	2.04531000E-9	8.26509000E-8	9.05112345E-5
3.49014000E+5	9.39999581E+2	0.00000000E+0	-5.97000000E+1	3.10000000E-13	1.91890000E-9	8.60244000E-8	9.07023627E-5
3.52308000E+5	9.59966365E+2	0.00000000E+0	-5.97000000E+1	3.00000000E-13	1.78187000E-9	8.81880000E-8	9.06649817E-5
3.55613000E+5	9.80008656E+2	0.00000000E+0	-5.97000000E+1	3.00000000E-13	1.65024000E-9	8.95916000E-8	9.04590923E-5
3.58732000E+5	1.00000976E+3	0.00000000E+0	-5.97000000E+1	3.10000000E-13	1.53993000E-9	9.10746000E-8	9.04857922E-5
